{
    "resourceType": "Bundle",
    "id": "c7bfa589-ce04-4af7-8722-b1b3fa18ea1d",
    "meta": {
        "versionId": "1",
        "lastUpdated": "2022-07-15T10:17:13.861-06:00",
        "profile": [
            "http://hl7.org/fhir/us/ecr/StructureDefinition/eicr-document-bundle"
        ]
    },
    "type": "message",
    "timestamp": "2022-07-15T10:17:13.862-06:00",
    "entry": [
        {
            "resource": {
                "resourceType": "MessageHeader",
                "id": "99e2c87b-1d20-47a7-8961-2aafba22253e",
                "meta": {
                    "versionId": "1",
                    "lastUpdated": "2022-07-15T10:17:16.604-06:00",
                    "profile": [
                        "http://hl7.org/fhir/us/medmorph/StructureDefinition/us-ph-messageheader"
                    ]
                },
                "eventCoding": {
                    "system": "http://hl7.org/fhir/us/medmorph/CodeSystem/us-ph-messageheader-message-types",
                    "code": "CdaEicrMessage"
                },
                "source": {
                    "endpoint": "http://localhost:9011/fhir"
                },
                "reason": {
                    "coding": [
                        {
                            "system": "http://hl7.org/fhir/us/medmorph/CodeSystem/us-ph-triggerdefinition-namedevents",
                            "code": "encounter-start"
                        }
                    ]
                },
                "focus": [
                    {
                        "reference": "Bundle/c8573843-7c32-4b2c-950d-6f74f10aba61"
                    }
                ]
            }
        },
        {
            "resource": {
                "resourceType": "Bundle",
                "id": "c8573843-7c32-4b2c-950d-6f74f10aba61",
                "meta": {
                    "versionId": "1",
                    "lastUpdated": "2022-07-15T10:17:13.864-06:00",
                    "profile": [
                        "http://hl7.org/fhir/us/ecr/StructureDefinition/eicr-document-bundle"
                    ]
                },
                "type": "document",
                "timestamp": "2022-07-15T10:17:13.865-06:00",
                "entry": [
                    {
                        "resource": {
                            "resourceType": "DocumentReference",
                            "id": "342356d3-a7ba-480b-868b-600b4a4cf8ee",
                            "status": "current",
                            "docStatus": "final",
                            "type": {
                                "coding": [
                                    {
                                        "system": "http://loinc.org",
                                        "code": "55751-2",
                                        "display": "Public Health Case Report"
                                    }
                                ],
                                "text": "Public Health Case Report"
                            },
                            "subject": {
                                "reference": "Patient/ex-trigger-condition-in"
                            },
                            "content": [
                                {
                                    "attachment": {
                                        "contentType": "application/xml;charset=utf-8",
                                        "data": "",
                                        "title": "Initial Public Health Case Report"
                                    }
                                }
                            ],
                            "context": {
                                "encounter": [
                                    {
                                        "reference": "Encounter/ex-trigger-condition-in-encounter-1"
                                    }
                                ],
                                "period": {
                                    "start": "2022-07-15T10:17:16-06:00",
                                    "end": "2022-07-15T10:17:16-06:00"
                                }
                            }
                        }
                    }
                ]
            }
        },
        {
            "resource": {
                "resourceType": "Bundle",
                "id": "eicrreport",
                "meta": {
                    "versionId": "1",
                    "lastUpdated": "2022-07-15T10:17:16.485-06:00",
                    "profile": [
                        "http://hl7.org/fhir/us/ecr/StructureDefinition/eicr-document-bundle"
                    ]
                },
                "type": "document",
                "timestamp": "2022-07-15T10:17:16.486-06:00",
                "entry": [
                    {
                        "resource": {
                            "resourceType": "Composition",
                            "id": "00ed8ff3-6ac8-45e5-b81c-2618e03c85c2",
                            "contained": [
                                {
                                    "resourceType": "Device",
                                    "id": "1",
                                    "deviceName": [
                                        {
                                            "name": "eCRNow/Backend Service App"
                                        }
                                    ]
                                }
                            ],
                            "extension": [
                                {
                                    "url": "http://hl7.org/fhir/StructureDefinition/composition-clinicaldocument-versionNumber",
                                    "valueString": "1"
                                }
                            ],
                            "identifier": {
                                "value": "00ed8ff3-6ac8-45e5-b81c-2618e03c85c2"
                            },
                            "type": {
                                "coding": [
                                    {
                                        "system": "http://loinc.org",
                                        "code": "55751-2",
                                        "display": "Public Health Case Report"
                                    }
                                ],
                                "text": "Public Health Case Report"
                            },
                            "subject": {
                                "reference": "Patient/ex-trigger-condition-in"
                            },
                            "encounter": {
                                "reference": "Encounter/ex-trigger-condition-in-encounter-1"
                            },
                            "date": "2022-07-15T10:17:16-06:00",
                            "author": [
                                {
                                    "reference": "#1"
                                }
                            ],
                            "section": [
                                {
                                    "code": {
                                        "coding": [
                                            {
                                                "system": "http://loinc.org",
                                                "code": "46239-0",
                                                "display": "Chief complaint+Reason for visit Narrative"
                                            }
                                        ],
                                        "text": "Chief complaint+Reason for visit Narrative"
                                    },
                                    "text": {
                                        "div": "<div xmlns=\"http://www.w3.org/1999/xhtml\">No Information</div>"
                                    }
                                },
                                {
                                    "code": {
                                        "coding": [
                                            {
                                                "system": "http://loinc.org",
                                                "code": "10164-2",
                                                "display": "History of Present illness Narrative"
                                            }
                                        ],
                                        "text": "History of Present illness Narrative"
                                    }
                                },
                                {
                                    "code": {
                                        "coding": [
                                            {
                                                "system": "http://loinc.org",
                                                "code": "10187-3",
                                                "display": "Review of Systems narrative"
                                            }
                                        ],
                                        "text": "Review of Systems narrative"
                                    }
                                },
                                {
                                    "code": {
                                        "coding": [
                                            {
                                                "system": "http://loinc.org",
                                                "code": "11450-4",
                                                "display": "Problem Section Narrative"
                                            }
                                        ],
                                        "text": "Problem Section Narrative"
                                    },
                                    "entry": [
                                        {
                                            "reference": "http://localhost:9011//FHIR/Condition/ex-trigger-condition-in-condition-1"
                                        }
                                    ]
                                },
                                {
                                    "code": {
                                        "coding": [
                                            {
                                                "system": "http://loinc.org",
                                                "code": "11348-0",
                                                "display": "Past Medical History Narrative"
                                            }
                                        ],
                                        "text": "Past Medical History Narrative"
                                    }
                                },
                                {
                                    "code": {
                                        "coding": [
                                            {
                                                "system": "http://loinc.org",
                                                "code": "29549-3",
                                                "display": "Medications Administered Narrative"
                                            }
                                        ],
                                        "text": "Medications Administered Narrative"
                                    }
                                },
                                {
                                    "code": {
                                        "coding": [
                                            {
                                                "system": "http://loinc.org",
                                                "code": "30954-2",
                                                "display": "Results Section Narrative"
                                            }
                                        ],
                                        "text": "Results Section Narrative"
                                    }
                                },
                                {
                                    "code": {
                                        "coding": [
                                            {
                                                "system": "http://loinc.org",
                                                "code": "18776-5",
                                                "display": "Plan of Treatment Narrative"
                                            }
                                        ],
                                        "text": "Plan of Treatment Narrative"
                                    }
                                },
                                {
                                    "code": {
                                        "coding": [
                                            {
                                                "system": "http://loinc.org",
                                                "code": "11369-6",
                                                "display": "Immunizations Narrative"
                                            }
                                        ],
                                        "text": "Immunizations Narrative"
                                    }
                                },
                                {
                                    "code": {
                                        "coding": [
                                            {
                                                "system": "http://loinc.org",
                                                "code": "47519-4",
                                                "display": "Procedure Section Narrative"
                                            }
                                        ],
                                        "text": "Procedure Section Narrative"
                                    }
                                },
                                {
                                    "code": {
                                        "coding": [
                                            {
                                                "system": "http://loinc.org",
                                                "code": "8716-3",
                                                "display": "Vital Signs Narrative"
                                            }
                                        ],
                                        "text": "Vital Signs Narrative"
                                    }
                                },
                                {
                                    "code": {
                                        "coding": [
                                            {
                                                "system": "http://loinc.org",
                                                "code": "29762-2",
                                                "display": "Social History Narrative"
                                            }
                                        ],
                                        "text": "Social History Narrative"
                                    }
                                },
                                {
                                    "code": {
                                        "coding": [
                                            {
                                                "system": "http://loinc.org",
                                                "code": "90767-5",
                                                "display": "Pregnancy Section Narrative"
                                            }
                                        ],
                                        "text": "Pregnancy Section Narrative"
                                    }
                                },
                                {
                                    "code": {
                                        "coding": [
                                            {
                                                "system": "http://loinc.org",
                                                "code": "83910-0",
                                                "display": "Emergency Outbreak Section Narrative"
                                            }
                                        ],
                                        "text": "Emergency Outbreak Section Narrative"
                                    }
                                }
                            ]
                        }
                    },
                    {
                        "fullUrl": "http://localhost:9011/fhir/Encounter/ex-trigger-condition-in-encounter-1",
                        "resource": {
                            "resourceType": "Encounter",
                            "id": "ex-trigger-condition-in-encounter-1",
                            "meta": {
                                "profile": [
                                    "http://hl7.org/fhir/us/qicore/StructureDefinition/qicore-encounter"
                                ]
                            },
                            "status": "in-progress",
                            "class": {
                                "system": "http://terminology.hl7.org/CodeSystem/v3-ActCode",
                                "code": "IMP",
                                "display": "inpatient encounter"
                            },
                            "type": [
                                {
                                    "coding": [
                                        {
                                            "system": "http://snomed.info/sct",
                                            "version": "2021-09",
                                            "code": "185389009",
                                            "display": "Follow-up visit (procedure)"
                                        }
                                    ]
                                }
                            ],
                            "subject": {
                                "reference": "ex-trigger-condition-in"
                            },
                            "period": {
                                "start": "2022-07-13T11:00:00-07:00",
                                "end": "2022-07-13T12:00:00-07:00"
                            },
                            "location": [
                                {
                                    "location": {
                                        "reference": "Location/location-reportable"
                                    }
                                }
                            ]
                        }
                    },
                    {
                        "fullUrl": "http://localhost:9011/fhir/Patient/ex-trigger-condition-in",
                        "resource": {
                            "resourceType": "Patient",
                            "id": "ex-trigger-condition-in",
                            "meta": {
                                "profile": [
                                    "http://hl7.org/fhir/us/qicore/StructureDefinition/qicore-patient"
                                ]
                            },
                            "extension": [
                                {
                                    "url": "http://hl7.org/fhir/us/core/StructureDefinition/us-core-race",
                                    "extension": [
                                        {
                                            "url": "ombCategory",
                                            "valueCoding": {
                                                "system": "http://terminology.hl7.org/CodeSystem/PHRaceAndEthnicityCDC",
                                                "code": "2106-3",
                                                "display": "White"
                                            }
                                        },
                                        {
                                            "url": "ombCategory",
                                            "valueCoding": {
                                                "system": "http://terminology.hl7.org/CodeSystem/PHRaceAndEthnicityCDC",
                                                "code": "1002-5",
                                                "display": "American Indian or Alaska Native"
                                            }
                                        },
                                        {
                                            "url": "ombCategory",
                                            "valueCoding": {
                                                "system": "http://terminology.hl7.org/CodeSystem/PHRaceAndEthnicityCDC",
                                                "code": "2028-9",
                                                "display": "Asian"
                                            }
                                        },
                                        {
                                            "url": "detailed",
                                            "valueCoding": {
                                                "system": "http://terminology.hl7.org/CodeSystem/PHRaceAndEthnicityCDC",
                                                "code": "1586-7",
                                                "display": "Shoshone"
                                            }
                                        },
                                        {
                                            "url": "detailed",
                                            "valueCoding": {
                                                "system": "http://terminology.hl7.org/CodeSystem/PHRaceAndEthnicityCDC",
                                                "code": "2036-2",
                                                "display": "Filipino"
                                            }
                                        },
                                        {
                                            "url": "text",
                                            "valueString": "Mixed"
                                        }
                                    ]
                                },
                                {
                                    "url": "http://hl7.org/fhir/us/core/StructureDefinition/us-core-ethnicity",
                                    "extension": [
                                        {
                                            "url": "ombCategory",
                                            "valueCoding": {
                                                "system": "http://terminology.hl7.org/CodeSystem/PHRaceAndEthnicityCDC",
                                                "code": "2135-2",
                                                "display": "Hispanic or Latino"
                                            }
                                        },
                                        {
                                            "url": "detailed",
                                            "valueCoding": {
                                                "system": "http://terminology.hl7.org/CodeSystem/PHRaceAndEthnicityCDC",
                                                "code": "2184-0",
                                                "display": "Dominican"
                                            }
                                        },
                                        {
                                            "url": "detailed",
                                            "valueCoding": {
                                                "system": "http://terminology.hl7.org/CodeSystem/PHRaceAndEthnicityCDC",
                                                "code": "2148-5",
                                                "display": "Mexican"
                                            }
                                        },
                                        {
                                            "url": "text",
                                            "valueString": "Hispanic or Latino"
                                        }
                                    ]
                                },
                                {
                                    "url": "http://hl7.org/fhir/us/core/StructureDefinition/us-core-birthsex",
                                    "valueCode": "M"
                                }
                            ],
                            "identifier": [
                                {
                                    "use": "usual",
                                    "type": {
                                        "coding": [
                                            {
                                                "system": "http://terminology.hl7.org/CodeSystem/v2-0203",
                                                "code": "MR"
                                            }
                                        ]
                                    },
                                    "system": "urn:oid:1.2.36.146.595.217.0.1",
                                    "value": "12345",
                                    "period": {
                                        "start": "2001-05-06"
                                    },
                                    "assigner": {
                                        "display": "Acme Healthcare"
                                    }
                                }
                            ],
                            "active": true,
                            "name": [
                                {
                                    "use": "official",
                                    "family": "Doe",
                                    "given": [
                                        "John"
                                    ]
                                }
                            ],
                            "gender": "male",
                            "birthDate": "2000-01-01",
                            "deceasedBoolean": false,
                            "address": [
                                {
                                    "line": [
                                        "5101 Peachtree St NE"
                                    ],
                                    "city": "Elko",
                                    "state": "NV",
                                    "postalCode": "89801",
                                    "country": "US"
                                }
                            ]
                        }
                    },
                    {
                        "fullUrl": "http://localhost:9011/fhir/Condition/ex-trigger-condition-in-condition-1",
                        "resource": {
                            "resourceType": "Condition",
                            "id": "ex-trigger-condition-in-condition-1",
                            "meta": {
                                "profile": [
                                    "http://hl7.org/fhir/us/qicore/StructureDefinition/qicore-condition"
                                ]
                            },
                            "clinicalStatus": {
                                "coding": [
                                    {
                                        "system": "http://terminology.hl7.org/CodeSystem/condition-clinical",
                                        "version": "0.5.0",
                                        "code": "active",
                                        "display": "Active"
                                    }
                                ]
                            },
                            "verificationStatus": {
                                "coding": [
                                    {
                                        "system": "http://terminology.hl7.org/ValueSet/condition-ver-status",
                                        "version": "0.5.0",
                                        "code": "confirmed",
                                        "display": "Confirmed"
                                    }
                                ]
                            },
                            "category": [
                                {
                                    "coding": [
                                        {
                                            "system": "http://terminology.hl7.org/ValueSet/condition-category",
                                            "version": "0.5.0",
                                            "code": "encounter-diagnosis",
                                            "display": "Encounter Diagnosis"
                                        }
                                    ]
                                }
                            ],
                            "code": {
                                "coding": [
                                    {
                                        "system": "http://snomed.info/sct",
                                        "code": "10750051000119105",
                                        "display": "Chlamydia trachomatis infection in mother complicating childbirth (disorder)"
                                    }
                                ]
                            },
                            "subject": {
                                "reference": "ex-trigger-condition-in"
                            },
                            "onsetDateTime": "2020-01-01T00:00:00-00:00"
                        }
                    }
                ]
            }
        }
    ]
}